Folder: XAS_analysis/C1/Imdz_example

Note: C1/README.md
XAS_analysis: C1 code

GENERAL INFORMATION ON THIS PROJECT
This is created by Laila Al-Madhagi (fy11lham@leeds.ac.uk) for her PhD project on the 2018/06/05. Joanna Leng (j.leng@leeds.ac.uk) from the University of Leeds contributed to the development. The code license should be CC-BY-NC. GitHub does not support this license type and it will be added later. 

This program was developed with Python 3.5.2 with modules: numpy(version1.13.1), scipy (version 0.19.1), matplotlib (version 2.0.2) and subprocess.It was developed on a windows system using Anaconda

FILES INCLUDED 

1,) README.md					This currently holds all the documentation for
								this repository
								
2,) C1.py   					Python source code for the comparison pipeline  
								
3,) edge_data.txt				A text file containing edge data information
								(derived from "Journal of Physics: Conference Series 712 (2016) 012070" which is taken from the X-ray Data Booklet)
								
4,) fitted_peaks_param.txt  	A text file containing the parameters for
								the peaks fitted to the experimental data. This file is used for testing   
								and development. 
								
5,) N1s_Imidazole_ISEELS.txt 	A text file containing experimental nitrogen K-edge data of imidazole in the gas phase. The file is used for testing and development 
								(data published in Apen et al, J. Phys. Chem. 1993, 97, 6859-6866 and available from:Gas Phase Core Excitation Database: http://unicorn.mcmaster.ca/corex/name-list.html
								
6,) TDDFT_N-edge.out 			TDDFT outputfile from TE1 pipeline. The
								file is used for testing and development.
								
								
								
INFORMATION ON THE C1 (COMPARISON) CODE

usage:   

[-h] FILE FILE FILE

C1: Compares experimental spectra with theorectically calculated data.
	   
	   
positional arguments:

  FILE        Experimental spectra datafile to be read in.
  
  FILE        Theoretically calulated spectra datafile to be read in.
  
  FILE        Peaks fitted to the experimental spectra datafile to be read in.

optional arguments:

  -h, --help  show this help message and exit
  
  
  

This program is the C1 part of the Manual pipeline, which is explain the README file in the top directory of this project.The computation is done by comparing the experimental and theoretical spectra. The theoretical spectra is translated so that the first peak is aligned with the first peak in the experimental spectrum.

File: N1s_Imidazole_ISEELS.txt
# XDI/1.0 Athena/0.9.24
# Element.edge:                  L3
# Element.symbol:                Sc
# Column.1:                      energy eV
# Column.2:                      norm
# Column.3:                      nbkg
# Column.4:                      flat
# Column.5:                      fbkg
# Column.6:                      nder
# Column.7:                      nsec
# Athena.e0:                     399.5223
# Athena.eshift:                 0
# Athena.rbkg:                   1.0
# Athena.importance:             1
# Athena.standard:               None
# Athena.bkg_kweight:            2
# Athena.edge_step:              5289.71
# Athena.fixed_step:             no
# Athena.pre_edge_range:         -6.740 -1.903
# Athena.pre_edge_line:          36409.2 - 70.5725 * E
# Athena.normalization_range:    24.560 35.552
# Athena.post_edge_polynomial:   61063.6 - 119.042 * E + 0 * E^2 + 0 * E^3
# Athena.spline_range_energy:    0.000 36.520
# Athena.clamps:                 0 24
# Athena.spline_range_k:         0.000 3.096
# Athena.kweight:                2
# Athena.window:                 hanning
# Athena.phase_correction:       no
# Athena.k_range:                1.096 3.000
# Athena.dk:                     1
# Athena.r_range:                1 3
# Athena.dr:                     0.0
# Athena.window:                 hanning
# Athena.plot_multiplier:        1
# Athena.y_offset:               0
# ///
#------------------------
#   e         norm        flat        fbkg        nder        nsec
  392.782       0.0197652   0.0197652   -1.64273      -0.220037       0.406321
  393.231       0.0118706   0.0118706   -1.63674       0.0463476  -0.942608
  393.681       0.00175313   0.00175313   -1.63074       0.0407326  -0.357435
  394.13      -0.00502357  -0.00502357   -1.62475      -0.0111883   0.156546
  394.58      -0.0230096  -0.0230096   -1.61875      -0.214696        1.4768
  395.029      -0.0260042  -0.0260042   -1.61276      -0.11774        1.67583
  395.478      -0.00798408  -0.00798408   -1.60676      -0.134376       0.714942
  395.928      -0.0067815  -0.0067815   -1.60077      -0.0319514   0.515419
  396.377      -0.0238176  -0.0238176   -1.59478      -0.0218647    1.06112
  396.826       0.0156429   0.0156429   -1.58878       0.0540677  -0.863178
  397.276      -0.0231161  -0.0231161   -1.58279       0.0516204   0.164074
  397.725       0.0233281   0.0233281   -1.57679      -0.0582202   -1.28332
  398.174       0.0343982   0.0343982   -1.57079       0.0752024  -0.339584
  398.624       0.0452015   0.0452015   -1.5648       0.149172       0.784884
  399.073       0.233836       0.233836       -1.5588        1.19823        5.22105
  399.522        1.33867        1.33867       -1.55281        3.45519       -1.77683
  399.972        1.9544        1.95852       -1.5427       -1.28289       -11.097
  400.421       0.870954       0.879189       -1.53259       -2.04777        5.30216
  400.87       0.577372       0.589724       -1.52247       0.362207        3.49365
  401.32       0.775333       0.791803       -1.51236       0.129495       0.657635
  401.769        1.16496        1.18555       -1.50225        1.71079        3.22465
  402.218        1.94519        1.9699       -1.49214       0.59517       -7.52417
  402.668        1.55273        1.58155       -1.48203       -1.96076       -2.91951
  403.117       0.694412       0.72735       -1.47191       -1.40696        2.55992
  403.566       0.402145       0.439201       -1.4618       0.129033       0.979335
  404.016       0.468217       0.50939       -1.45169       0.495439        1.54345
  404.465       0.695249       0.74054       -1.44158       0.548822      -0.158399
  404.914       0.833856       0.883264       -1.43146       0.134749      -0.18014
  405.364       0.978039        1.03156       -1.42135       0.181136       -1.79071
  405.813        1.06704        1.12468       -1.41124       0.289726      -0.103341
  406.262        1.20065        1.26241       -1.40113       0.21367      -0.363468
  406.712        1.33737        1.40325       -1.39101       0.466498      -0.928282
  407.161        1.35584        1.42583       -1.3809      -0.0302671   0.209246
  407.61        1.3157        1.38981       -1.37079      -0.247066        1.1981
  408.06        1.26486        1.34309       -1.36068      -0.0528121    1.78439
  408.509        1.24649        1.32883       -1.35057      -0.012807    1.23949
  408.959        1.20928        1.29574       -1.34045      -0.00447784    1.40572
  409.408        1.23375        1.32433       -1.33034       0.0167756   -1.18752
  409.857        1.24501        1.33971       -1.32023       0.0399611  -0.538262
  410.307        1.28234        1.38116       -1.31012       0.285557       0.504834
  410.756        1.36071        1.46364       -1.30001       0.0678595  -0.143818
  411.205        1.38774        1.49479       -1.28989      -0.133697       0.473954
  411.654        1.34965        1.46082       -1.27978       0.217926       0.988991
  412.104        1.3854        1.50069       -1.26967      -0.0237022   -1.98061
  412.553        1.34239        1.4618       -1.25956      -0.431987      -0.137886
  413.002        1.33226        1.45578       -1.24945      -0.152366      -0.785341
  413.452        1.30615        1.43379       -1.23933      -0.0919171   -1.57605
  413.901        1.27498        1.40673       -1.22922       0.129244      -0.379984
  414.351        1.25204        1.38791       -1.21911       0.149637       0.68594
  414.8        1.2281        1.36809       -1.209      -0.0867201   0.310984
  415.249        1.26144        1.40555       -1.19889       0.032406   -2.46425
  415.699        1.18463        1.33286       -1.18877      -0.0181158  -0.862977
  416.148        1.17695        1.32929       -1.17866       0.0558117   -1.28498
  416.597        1.09303        1.24949       -1.16855      -0.112462        1.26762
  417.047        1.11128        1.27185       -1.15844      -0.196756       -1.99488
  417.496        1.0414        1.20609       -1.14832       0.0780564  -0.636824
  417.945        1.0277        1.19651       -1.13821       0.150772       -1.34523
  418.395        1.00905        1.18198       -1.1281       0.0847955   -1.22
  418.844       0.943432        1.12048       -1.11799      -0.155942        1.13153
  419.293       0.943419        1.12458       -1.10787      -0.00511705  -0.828292
  419.743       0.918591        1.10387       -1.09776      -0.109644      -0.0914968
  420.192       0.902064        1.09146       -1.08765      -0.0563936   0.389311
  420.641       0.898717        1.09223       -1.07754      -0.252527      -0.573656
  421.091       0.885207        1.08284       -1.06743       0.0936042  -0.730631
  421.54       0.832924        1.03467       -1.05731      -0.139529       0.904371
  421.989       0.81303        1.0189       -1.0472      -0.0953076   0.581054
  422.439       0.849551        1.05953       -1.03709      -0.150387       -1.486
  422.888       0.814558        1.02866       -1.02698      -0.112622      -0.486416
  423.337       0.779448       0.997665       -1.01686      -0.122777       0.14684
  423.787       0.75066       0.972994       -1.00675       0.121778        1.08077
  424.236       0.819175        1.04563      -0.99664       0.089549   -2.08643
  424.685       0.75729       0.987859      -0.986528       0.261467       0.0975431
  425.135       0.763218       0.997904      -0.976417      -0.114179       0.106192
  425.584       0.802979        1.04178      -0.966304       0.118617       -1.65198
  426.033       0.75608       0.999001      -0.956192      -0.270464      -0.565191
  426.483       0.746077       0.993116      -0.946079       0.0473816  -0.631835
  426.932       0.761482        1.01264      -0.935968       0.356874       -1.20929
  427.381       0.758692        1.01396      -0.925856      -0.00764124   -1.57545
  427.831       0.733135       0.992526      -0.915743       0.145051      -0.396948
  428.28       0.712768       0.976276      -0.905632       0.219253       0.914992
  428.729       0.738964        1.00659      -0.895518      -0.077909   -1.10647
  429.179       0.741618        1.01336      -0.885407       0.101838       -1.47867
  429.628       0.737429        1.01329      -0.875296       0.0929269   -1.24919
  430.077       0.709481       0.989457      -0.865182       0.1389      -0.155427
  430.527       0.727633        1.01173      -0.855071       0.26149      -0.592803
  430.976       0.736356        1.02457      -0.844957       0.156666       -1.04871
  431.425       0.694945       0.987274      -0.834846      -0.0332644   0.0261201
  431.875       0.71507        1.01152      -0.824735      -0.0609495  -0.903245
  432.324       0.698947       0.99951      -0.814621      -0.117718      -0.120801
  432.774       0.691924       0.996604      -0.80451      -0.120102       0.0673961
  433.223       0.705318        1.01412      -0.794396      -0.106439      -0.419123
  433.672       0.700006        1.01292      -0.784285      -0.223476      -0.268517
  434.122       0.698703        1.01574      -0.774172      -0.0281452   0.111313
  434.571       0.706119        1.02727      -0.76406      -0.303915      -0.441607
  435.02       0.669173       0.99444      -0.753949      -0.110483       0.275065
  435.47       0.667615       0.996999      -0.743836      -0.00613694   0.386709
  435.919       0.695144        1.02865      -0.733724       0.033413   -1.13052
  436.031       0.673697        1.00823      -0.731195      -0.190812       -1.99488