Folder: XAS_analysis/E2 (part 2)

File: Imdz_Solution_35C_APS.txt
# XDI/1.0 Athena/0.9.24
# Element.edge:                  K
# Element.symbol:                N
# Column.1:                      energy eV
# Column.2:                      norm
# Column.3:                      nbkg
# Column.4:                      flat
# Column.5:                      fbkg
# Column.6:                      nder
# Column.7:                      nsec
# Athena.e0:                     400
# Athena.eshift:                 0
# Athena.rbkg:                   1.0
# Athena.importance:             1
# Athena.standard:               None
# Athena.bkg_kweight:            2
# Athena.edge_step:              0.0002820
# Athena.fixed_step:             no
# Athena.pre_edge_range:         -20.206 -1.606
# Athena.pre_edge_line:          0.002421 - 4.14502e-006 * E
# Athena.normalization_range:    19.827 50.632
# Athena.post_edge_polynomial:   0.003208 - 5.40903e-006 * E + 0 * E^2 + 0 * E^3
# Athena.spline_range_energy:    0.000 185.624
# Athena.clamps:                 0 24
# Athena.spline_range_k:         0.000 6.980
# Athena.kweight:                2
# Athena.window:                 hanning
# Athena.phase_correction:       no
# Athena.k_range:                3.000 4.980
# Athena.dk:                     1
# Athena.r_range:                1 3
# Athena.dr:                     0.0
# Athena.window:                 hanning
# Athena.plot_multiplier:        1
# Athena.y_offset:               0
# ///
#------------------------
#   e         norm        nbkg        flat        fbkg        nder        nsec
  379.774       0.0460823   0.0460786   0.0460786   0.0460786  -0.046478   0.0227685
  385.85      -0.0498351  -0.0498311  -0.0498311  -0.0498311  -0.0147883   0.00473674
  391.762       0.0294947   0.0294924   0.0294924   0.0294924  -0.0229015  -0.00205563
  396.998       0.0135425   0.0135414   0.0135414   0.0135414  -0.223526      -0.705641
  397.278       0.0378173   0.0378142   0.0378142   0.0378142  -0.0653738  -0.32923
  397.58      -0.013994  -0.0139929  -0.0139929  -0.0139929  -0.520714       -1.00051
  397.879       0.0370955   0.0370925   0.0370925   0.0370925   0.067919   -3.65903
  398.142      -0.00263149  -0.00263128  -0.00263128  -0.00263128   0.3319       -2.91372
  398.416       0.051265   0.0512609   0.0512609   0.0512609   0.620945       0.323351
  398.677       0.0682344   0.068229   0.068229   0.068229  -0.123761      -0.68765
  399.007      -0.0230553  -0.0230534  -0.0230534  -0.0230534   0.361375        14.0078
  399.245       0.228841       0.228823       0.228823       0.228823        1.04229        5.65644
  399.563       0.84381       0.843742       0.843742       0.843742        2.22911        3.21373
  399.869        1.50758        1.50746        1.50746        1.50746       0.742144       -10.6205
  400.131        1.44145      -0.595926        1.442      -0.595259       -1.68834       -6.30554
  400.395       0.900347      -0.434579       0.902127      -0.432726       -1.46637        5.47544
  400.678       0.539559      -0.27109       0.542634      -0.267971      -0.593022        11.6326
  401.016       0.71801      -0.0871723   0.722587      -0.0825376   0.941645        4.16007
  401.353        1.23388       0.0835492    1.23993       0.0896941    1.34246      -0.217125
  401.676        1.44633       0.236071        1.45381       0.243665      -0.364325       -6.99799
  401.965        1.15363       0.363116        1.16242       0.372004      -0.839198       0.392591
  402.264       0.743159       0.486196       0.75333       0.496426       -1.36858        3.80146
  402.543       0.510053       0.592754       0.521489       0.604231      -0.0878705    2.46313
  402.827       0.483291       0.694266       0.496006       0.70702      -0.421154      -0.417471
  403.102       0.502773       0.785304       0.516718       0.79929       0.608762       -1.15726
  403.436       0.552705       0.886918       0.568142       0.9024       0.336862       0.177474
  403.802       0.653357       0.987418       0.670425        1.00454      -0.0575662  -0.768355
  404.113       0.717404        1.06443       0.735862        1.08294       0.918201       -2.30385
  404.422       0.790782        1.13344       0.810619        1.15334       0.374281        2.90269
  404.687       0.884572        1.18705       0.905591        1.20814       0.105591        1.35101
  404.957       0.945225        1.23627       0.967447        1.25857       0.180078        3.11099
  405.235        1.12056        1.28184        1.14401        1.30538       0.065418   -1.63923
  405.55        1.18372        1.32722        1.20858        1.35218       0.457404      -0.903958
  405.875        1.22922        1.36757        1.25553        1.39398       0.434444        4.07494
  406.199        1.38225        1.4016        1.41        1.42946       0.180439       -2.97246
  406.495        1.36641        1.4274        1.3955        1.45659       0.304143        3.29359
  406.787        1.51109        1.44831        1.54147        1.47881       0.240795       -5.31976
  407.064        1.4609        1.46421        1.49253        1.49596       0.579844       0.764865
  407.332        1.5053        1.47613        1.53812        1.50907      -0.989038       -2.69648
  407.595        1.4622        1.48468        1.49621        1.51881       0.524006       -7.9406
  407.902        1.38779        1.49102        1.42318        1.52652       0.105567        1.67442
  408.23        1.33844        1.49378        1.3753        1.53075      -0.29611       0.438324
  408.556        1.26865        1.49273        1.30698        1.53117       0.435511        2.13496
  408.856        1.40185        1.48875        1.44151        1.52853      -0.367468       -3.76597
  409.142        1.27185        1.48254        1.3128        1.5236       0.164962       0.55486
  409.391        1.34795        1.47538        1.39001        1.51756       0.329765       -2.66718
  409.683        1.31623        1.46514        1.3596        1.50862      -0.0483635    1.05145
  409.993        1.35154        1.45234        1.3963        1.49721       0.0869142   -1.28932
  410.342        1.31743        1.43598        1.36376        1.48242       0.329963        2.46556
  410.661        1.33971        1.41959        1.38747        1.46745      -0.575683        2.63722
  410.976        1.43148        1.40231        1.48064        1.45158       0.316207       -3.33562
  411.258        1.46632        1.38624        1.51674        1.43678      -0.200395       -1.78503
  411.535        1.49862        1.37008        1.55028        1.42187       0.176539       -4.62988
  411.822        1.48654        1.35328        1.53949        1.40635       0.453009       0.0463761
  412.1        1.48028        1.33712        1.53447        1.39144       0.174351        2.58493
  412.412        1.4971        1.31927        1.55269        1.37499      -0.309702        1.88383
  412.753        1.43527        1.30029        1.4924        1.35754      -0.351933       0.0710575
  413.098        1.38738        1.28159        1.44606        1.34038       0.033512    1.77213
  413.401        1.508        1.26561        1.56803        1.32575      -0.19643       -6.02307
  413.693        1.46102        1.25053        1.52236        1.31198      -0.125461       -8.18221
  413.946        1.2985        1.23775        1.36098        1.30035       0.00830677    5.11643
  414.229        1.36518        1.22376        1.42893        1.28762      -0.949943       -2.31691
  414.523        1.28349        1.20959        1.34857        1.27476      -0.065512   -1.91563
  414.853        1.25152        1.19407        1.31808        1.26072       0.472171       0.675313
  415.174        1.30553        1.17937        1.37352        1.24747      -0.0810124    1.0732
  415.491        1.28306        1.16523        1.35248        1.23475      -0.195092       -1.44731
  415.771        1.21021        1.15307        1.28089        1.22385       0.100505       0.790614
  416.065        1.13135        1.14063        1.20335        1.21272      -0.315766        2.50573
  416.332        1.13251        1.12963        1.20571        1.20292       0.101241      -0.609773
  416.605        1.07509        1.11861        1.14952        1.19312      -0.0483386   0.757859
  416.876        1.21093        1.10795        1.28656        1.18367      -0.0526161   -3.64505
  417.224        1.12071        1.09462        1.19791        1.1719      -0.0915831   -1.63732
  417.549        1.06631        1.08258        1.14497        1.16132       0.0599212   -1.28764
  417.853        1.04207        1.07163        1.12209        1.15173       0.582654       0.68486
  418.148        1.03827        1.06132        1.11961        1.14274      -0.2555      -0.650496
  418.405       0.932898        1.05255        1.0154        1.13513       0.413079        4.03645
  418.678        1.0831        1.04351        1.16681        1.12731       0.639797       -2.1638
  418.977        1.06921        1.03384        1.15426        1.11898      -0.459038      -0.600122
  419.322       0.932613        1.02307        1.01923        1.10976      -0.203345       0.149356
  419.647        1.00703        1.01326        1.09509        1.1014       0.455441       -2.6264
  421.165       0.902535       0.971627       0.99741        1.06657       0.0129506   0.0244942
  425.712       0.900029       0.883415        1.01529       0.998744       0.000571226   0.00257035
  430.726       0.906312       0.834546        1.04404       0.972348      -0.0109924  -0.0117465
  436.193       0.77248       0.814749       0.934726       0.977057       0.0064837   0.00881791
  442.03       0.81284       0.801711        1.00125       0.990185      -0.0259168   0.00106397
  448.312       0.876781       0.759151        1.09334       0.975779      -0.0114021  -0.0199981
  450.545       0.742807       0.729172       0.969385       0.95581      -0.0599946  -0.0217601

File: N1s_Imidazole_ISEELS.txt
# XDI/1.0 Athena/0.9.24
# Element.edge:                  L3
# Element.symbol:                Sc
# Column.1:                      energy eV
# Column.2:                      norm
# Column.3:                      nbkg
# Column.4:                      flat
# Column.5:                      fbkg
# Column.6:                      nder
# Column.7:                      nsec
# Athena.e0:                     399.5223
# Athena.eshift:                 0
# Athena.rbkg:                   1.0
# Athena.importance:             1
# Athena.standard:               None
# Athena.bkg_kweight:            2
# Athena.edge_step:              5574.9
# Athena.fixed_step:             no
# Athena.pre_edge_range:         -6.740 -1.366
# Athena.pre_edge_line:          33532.3 - 63.2795 * E
# Athena.normalization_range:    21.585 36.452
# Athena.post_edge_polynomial:   65362.7 - 128.997 * E + 0 * E^2 + 0 * E^3
# Athena.spline_range_energy:    0.000 36.520
# Athena.clamps:                 0 24
# Athena.spline_range_k:         0.000 3.096
# Athena.kweight:                2
# Athena.window:                 hanning
# Athena.phase_correction:       no
# Athena.k_range:                1.096 3.000
# Athena.dk:                     1
# Athena.r_range:                1 3
# Athena.dr:                     0.0
# Athena.window:                 hanning
# Athena.plot_multiplier:        1
# Athena.y_offset:               0
# ///
#------------------------
#   e         norm        flat        fbkg        nder        nsec
  392.782       0.0209576   0.0209576   -1.55642      -0.210089       0.385534
  393.231       0.0128792   0.0128792   -1.55132       0.0426684  -0.894387
  393.681       0.00269137   0.00269137   -1.54622       0.0373406  -0.33915
  394.13      -0.00432643  -0.00432643   -1.54112      -0.0119241   0.148538
  394.58      -0.0219802  -0.0219802   -1.53602      -0.205021        1.40125
  395.029      -0.0254094  -0.0254094   -1.53092      -0.113025        1.5901
  395.478      -0.00889893  -0.00889893   -1.52582      -0.12881       0.678368
  395.928      -0.00834577  -0.00834577   -1.52072      -0.0316251   0.489052
  396.377      -0.0250981  -0.0250981   -1.51562      -0.0220544    1.00684
  396.826       0.0117558   0.0117558   -1.51052       0.0499935  -0.81902
  397.276      -0.0256082  -0.0256082   -1.50542       0.0476715   0.15568
  397.725       0.0178723   0.0178723   -1.50032      -0.05655   -1.21767
  398.174       0.0277881   0.0277881   -1.49522       0.0700471  -0.322212
  398.624       0.037451   0.037451   -1.49012       0.140233       0.744732
  399.073       0.215848       0.215848       -1.48502        1.13562        4.95395
  399.522        1.26357        1.26357       -1.47992        3.27712       -1.68593
  399.972        1.84722        1.85251       -1.46952       -1.21857       -10.5293
  400.421       0.818609       0.829203       -1.45912       -1.94432        5.03092
  400.87       0.539458       0.555349       -1.44873       0.342369        3.31492
  401.32       0.726704       0.747892       -1.43833       0.121562       0.623992
  401.769        1.09581        1.12229       -1.42793        1.62197        3.05969
  402.218        1.83554        1.86732       -1.41753       0.563415       -7.13925
  402.668        1.46257        1.49965       -1.40714       -1.86176       -2.77016
  403.117       0.647571       0.689946       -1.39674       -1.3363        2.42896
  403.566       0.369668       0.41734       -1.38634       0.121123       0.929234
  404.016       0.431772       0.48474       -1.37594       0.468786        1.46449
  404.465       0.646602       0.704868       -1.36555       0.519437      -0.150296
  404.914       0.77753       0.841093       -1.35515       0.126547      -0.170925
  405.364       0.91375       0.982609       -1.34475       0.170561       -1.69911
  405.813       0.997609        1.07177       -1.33436       0.273596      -0.0980541
  406.262        1.1238        1.20325       -1.32396       0.201431      -0.344874
  406.712        1.25294        1.33769       -1.31356       0.441325      -0.880794
  407.161        1.26987        1.35992       -1.30316      -0.0300269   0.198541
  407.61        1.2312        1.32654       -1.29277      -0.235735        1.13681
  408.06        1.18237        1.28301       -1.28237      -0.0514186    1.6931
  408.509        1.16435        1.27029       -1.27197      -0.01346    1.17608
  408.959        1.12846        1.23969       -1.26157      -0.00555696    1.33381
  409.408        1.15109        1.26762       -1.25118       0.0146092   -1.12677
  409.857        1.16119        1.28301       -1.24078       0.0366086  -0.510726
  410.307        1.19602        1.32314       -1.23038       0.26964       0.479008
  410.756        1.26979        1.40221       -1.21999       0.0630798  -0.13646
  411.205        1.29485        1.43257       -1.20959      -0.128166       0.449707
  411.654        1.25812        1.40114       -1.19919       0.205469       0.938397
  412.104        1.29146        1.43977       -1.18879      -0.0237978   -1.87929
  412.553        1.25006        1.40367       -1.1784      -0.411195      -0.130832
  413.002        1.23986        1.39876       -1.168      -0.14588      -0.745165
  413.452        1.2145        1.3787       -1.1576      -0.088523   -1.49542
  413.901        1.18433        1.35383       -1.14721       0.121324      -0.360545
  414.351        1.16198        1.33677       -1.13681       0.140673       0.65085
  414.8        1.13868        1.31877       -1.12641      -0.083592   0.295075
  415.249        1.16972        1.35511       -1.11602       0.02944   -2.33819
  415.699        1.09625        1.28694       -1.10562      -0.0184972  -0.818829
  416.148        1.08838        1.28436       -1.09522       0.0516484   -1.21925
  416.597        1.00816        1.20944       -1.08482      -0.108017        1.20277
  417.047        1.02489        1.23147       -1.07443      -0.187999       -1.89282
  417.496       0.957996        1.16987       -1.06403       0.0727551  -0.604246
  417.945       0.944414        1.16158       -1.05363       0.141751       -1.27641
  418.395       0.926132        1.1486       -1.04323       0.0791494   -1.15759
  418.844       0.863278        1.09104       -1.03284      -0.149273        1.07364
  419.293       0.862678        1.09574       -1.02244      -0.00616347  -0.785919
  419.743       0.838532        1.07689       -1.01204      -0.105343      -0.0868161
  420.192       0.822263        1.06592       -1.00164      -0.0548168   0.369395
  420.641       0.8185        1.06745      -0.991248      -0.240916      -0.544309
  421.091       0.805093        1.05934      -0.98085       0.0875075  -0.693254
  421.54       0.754897        1.01444      -0.970453      -0.133699       0.858106
  421.989       0.735433        1.00027      -0.960057      -0.0917401   0.551328
  422.439       0.769498        1.03964      -0.949659      -0.144001       -1.40998
  422.888       0.735707        1.01114      -0.939262      -0.108169      -0.461532
  423.337       0.701805       0.982538      -0.928864      -0.117804       0.139328
  423.787       0.673901       0.959931      -0.918467       0.11424        1.02548
  424.236       0.738324        1.02965      -0.908069       0.0836597   -1.9797
  424.685       0.679017       0.975641      -0.897673       0.246783       0.0925531
  425.135       0.684054       0.985974      -0.887276      -0.109646       0.100759
  425.584       0.721194        1.02841      -0.876878       0.111241       -1.56747
  426.033       0.676106       0.98862      -0.866482      -0.257936      -0.536278
  426.483       0.666027       0.983838      -0.856083       0.0436495  -0.599512
  426.932       0.680056        1.00316      -0.845687       0.337309       -1.14742
  427.381       0.67682        1.00522      -0.83529      -0.00855853   -1.49486
  427.831       0.651983       0.985685      -0.824892       0.136323      -0.376641
  428.28       0.63207       0.971068      -0.814496       0.206729       0.868183
  428.729       0.656338        1.00063      -0.804097      -0.0752315   -1.04987
  429.179       0.658269        1.00786      -0.793701       0.0953201   -1.40303
  429.628       0.653706        1.00859      -0.783304       0.0868648   -1.18528
  430.077       0.6266       0.986785      -0.772906       0.130486      -0.147475
  430.527       0.643236        1.00872      -0.76251       0.246804      -0.562477
  430.976       0.650925        1.0217      -0.752111       0.147343      -0.995065
  431.425       0.611044       0.987121      -0.741715      -0.0328709   0.0247839
  431.875       0.629552        1.01092      -0.731318      -0.0591396  -0.857037
  432.324       0.613666        1.00034      -0.72092      -0.113004      -0.114622
  432.774       0.606414       0.998381      -0.710524      -0.115266       0.0639483
  433.223       0.618535        1.0158      -0.700125      -0.102302      -0.397682
  433.672       0.612907        1.01547      -0.689729      -0.213352      -0.25478
  434.122       0.611082        1.01894      -0.67933      -0.0280136   0.105618
  434.571       0.617532        1.03069      -0.668934      -0.289675      -0.419016
  435.02       0.581888        1.00034      -0.658538      -0.106139       0.260994
  435.47       0.579822        1.00357      -0.648139      -0.00713119   0.366926
  435.919       0.605355        1.0344      -0.637743       0.0303955   -1.07269
  436.031       0.584858        1.01523      -0.635142      -0.182359       -1.89283