Folder: XAS_analysis/E2

Note: E2/README.md
This is created by Laila Al-Madhagi (fy11lham@leeds.ac.uk) for her PhD project on the 2018/05/23. Joanna Leng from the University of Leeds contributed to the development. The code license should be CC-BY-NC. GitHub does not support this license type and it will be added later. 

This program was developed with Python 3.5.2 with modules: numpy(version 1.13.1), scipy(version 0.19.1), matplotlib(version 2.0.2) and lmfit(version 0.9.10).It was developed on a windows system using Anaconda

to install lmfit, follow the instructions on this web page: https://anaconda.org/conda-forge/lmfit 

FILES INCLUDED
1,)E2.py						Python source code for peak fitting 
								
2,)edge_data.txt 				A text file containing edge data information
								(derived from "Journal of Physics: Conference Series 712 (2016) 012070" which is taken from the X-ray Data Booklet)  
3,) N1s_Imidazole_ISEELS.txt 	A text file containing experimental nitrogen K-edge data of imidazole in the gas phase. The file is used for testing and development 
								(data published in Apen et al, J. Phys. Chem. 1993, 97, 6859-6866 and available from:Gas Phase Core Excitation Database: http://unicorn.mcmaster.ca/corex/name-list.html
			
			
This program is the E2 part of the experimental pipeline or workflow, a diagram of all the planned pipes is provided in the respository.

File: 1_5mM_kaucn4_h2o_1.nor
# XDI/1.0  Demeter/0.9.18
# Athena.element:              Au
# Athena.edge:                 l3
# Athena.e0:                   11930
# Athena.eshift:               -4.892
# Athena.rbkg:                 1
# Athena.standard:             None
# Athena.bkg_kweight:          2
# Athena.edge_step:            3.96855
# Athena.fixed_step:           no
# Athena.flatten:              yes
# Athena.pre_edge_range:       -250 -35
# Athena.pre_edge_line:        -7.994190 + 0.000684419 * E
# Athena.normalization_range:  20 750
# Athena.post_edge_polynomial: -109.588 + 0.018383 * E - 7.41835e-007 * E^2 + 0 * E^3
# Athena.spline_range_energy:  0.000 739.839
# Athena.clamps:               0/24
# Athena.spline_range_k:       0.000 13.935
# Athena.kweight:              2
# Athena.window:               hanning
# Athena.phase_correction:     0
# Athena.k_range:              3.000 11.935
# Athena.dk:                   1
# Athena.r_range:              1 3
# Athena.dr:                   0.0
# Athena.window:               hanning
# Athena.plot_multiplier:      1
# Athena.y_offset:             0
# ///
#------------------------
#   e         norm        nbkg        flat        fbkg        nder        nsec
  11714.124       0.00976105   0.00976105   0.00976105   0.00976105  -0.000266926   2.36436e-05
  11739.111       0.00586049   0.00586049   0.00586049   0.00586049  -0.000217637   8.83409e-07
  11763.585       0.00267445   0.00267445   0.00267445   0.00267445  -0.000114599  -2.6565e-06
  11785.406      -0.00130286  -0.00130286  -0.00130286  -0.00130286  -0.000106947   1.16619e-05
  11804.395      -0.00313042  -0.00313042  -0.00313042  -0.00313042  -1.92302e-05  -7.27831e-06
  11820.568      -0.00480488  -0.00480488  -0.00480488  -0.00480488  -0.000171864   3.30166e-05
  11833.987      -0.00501551  -0.00501551  -0.00501551  -0.00501551  -7.42666e-05  -8.21006e-06
  11844.674      -0.00512077  -0.00512077  -0.00512077  -0.00512077   0.000228634   6.86169e-06
  11852.677      -0.00490381  -0.00490381  -0.00490381  -0.00490381   0.000508225  -0.000111445
  11858.044      -0.00514639  -0.00514639  -0.00514639  -0.00514639  -4.75283e-06   0.000221042
  11861.008      -0.0047782  -0.0047782  -0.0047782  -0.0047782  -0.000277798   0.000527353
  11863.509      -0.00438036  -0.00438036  -0.00438036  -0.00438036   0.000243683   0.00062353
  11866.010      -0.00363494  -0.00363494  -0.00363494  -0.00363494   0.000672183  -0.0009437
  11868.506      -0.00327672  -0.00327672  -0.00327672  -0.00327672   0.000810364   0.000645211
  11870.997      -0.00338127  -0.00338127  -0.00338127  -0.00338127   0.000603408   0.00035441
  11873.507      -0.00248881  -0.00248881  -0.00248881  -0.00248881  -0.000595554   0.00135441
  11876.019      -0.00145289  -0.00145289  -0.00145289  -0.00145289   0.000146051   0.000734933
  11878.507      -0.000493577  -0.000493577  -0.000493577  -0.000493577   0.000270362   0.000738535
  11881.008       0.00136806   0.00136806   0.00136806   0.00136806   0.000322404  -0.0013477
  11883.517       0.00268921   0.00268921   0.00268921   0.00268921   2.86415e-05   1.72646e-05
  11886.008       0.0045904   0.0045904   0.0045904   0.0045904   0.000820086  -0.000619304
  11888.507       0.00663145   0.00663145   0.00663145   0.00663145   0.00152325  -0.00034704
  11891.006       0.00881846   0.00881846   0.00881846   0.00881846   0.00103483   0.0012453
  11893.507       0.0118872   0.0118872   0.0118872   0.0118872   0.000819511   0.000412482
  11896.008       0.0168054   0.0168054   0.0168054   0.0168054   0.00191981  -7.06918e-05
  11898.511       0.0212244   0.0212244   0.0212244   0.0212244   0.00289895   0.00160399
  11901.003       0.0292083   0.0292083   0.0292083   0.0292083   0.00379337  -0.00119399
  11903.514       0.0375291   0.0375291   0.0375291   0.0375291   0.00367645  -8.21331e-05
  11906.013       0.0499969   0.0499969   0.0499969   0.0499969   0.00446857   0.00181181
  11908.514       0.0680863   0.0680863   0.0680863   0.0680863   0.00789734   0.000499747
  11911.004       0.097368   0.097368   0.097368   0.097368   0.0154791   0.000244506
  11913.506       0.147179       0.147179       0.147179       0.147179       0.0259139   0.00678966
  11916.011       0.238158       0.238158       0.238158       0.238158       0.0515348   0.0213931
  11918.509       0.464082       0.464082       0.464082       0.464082       0.139974       0.0397984
  11921.009        1.0046        1.0046        1.0046        1.0046       0.261468      -0.00437935
  11923.498        1.37547        1.37547        1.37547        1.37547      -0.0501188  -0.133798
  11926.019        1.23778        1.23778        1.23778        1.23778       0.0148595   0.0349994
  11928.509        1.20931        1.20931        1.20931        1.20931      -0.0855385  -0.0678537
  11931.001       0.91121       0.226107       0.911211       0.226108      -0.107997       0.0284242
  11933.506       0.731771       0.496246       0.731774       0.49625      -0.0309286   0.0254881
  11936.006       0.71937       0.696299       0.719379       0.696308       0.0176703   0.0204837
  11938.508       0.80678       0.837314       0.806797       0.837331       0.049126   0.00502807
  11941.010       0.913415       0.929588       0.913442       0.929615       0.0380165  -0.00873159
  11943.513       0.985554       0.983453       0.985593       0.983493       0.0222723   0.0082294
  11945.999        1.02789        1.00915        1.02794        1.0092       0.00268016  -0.011211
  11948.517        1.01122        1.01739        1.0113        1.01746      -0.0142153  -0.00752385
  11951.011       0.967705        1.01821       0.967797        1.01831      -0.0181747  -0.000446498
  11953.506       0.934266        1.01835       0.934379        1.01847      -0.0141295  -0.00196257
  11956.008       0.918715        1.01839       0.918852        1.01852      -0.00276165   0.00358664
  11958.499       0.930355        1.01832       0.930519        1.01848       0.00756851   0.00100209
  11960.998       0.954745        1.01815       0.954937        1.01835       0.0107433   0.00412297
  11963.503       0.978906        1.0179       0.97913        1.01812       0.0129827   0.0101412
  11966.004        1.01688        1.01756        1.01713        1.01782       0.0121242   0.00105338
  11968.262        1.04725        1.01719        1.04754        1.01748       0.00855108  -0.0027135
  11971.207        1.08643        1.01662        1.08677        1.01696       0.0126874  -0.00376355
  11975.547        1.12746        1.01563        1.12787        1.01604       0.00271895  -0.00347909
  11981.635        1.09812        1.01399        1.09864        1.01451      -0.0115636  -0.00128437
  11988.198        1.01532        1.01198        1.01597        1.01263      -0.0107314   0.00149416
  11995.076       0.959022        1.00973       0.959841        1.01055      -0.00380788   0.00163793
  12002.244       0.954762        1.00739       0.955768        1.00839       0.00120062   0.000843275
  12009.735       0.977963        1.00509       0.979184        1.00632       0.00163477  -0.00031396
  12017.531       0.997054        1.00304       0.998522        1.0045       0.00214677  -0.000375294
  12025.615        1.00806        1.00128        1.00981        1.00303      -0.000845471  -0.000927821
  12034.012        1.002       0.999814        1.00406        1.00188      -0.000636718   0.000344341
  12042.718       0.998002       0.998633        1.00042        1.00105       0.00185713   3.69474e-05
  12051.722        1.00305       0.997719        1.00587        1.00054       0.001047   6.16851e-05
  12061.037        1.01261       0.997039        1.01587        1.0003       0.000673337   0.000152962
  12070.653        1.01816       0.996554        1.02191        1.00031      -0.000987076  -0.000338557
  12080.576       0.997017       0.99621        1.00132        1.00051      -0.00143709   0.000489025
  12090.797       0.984116       0.995938       0.989015        1.00084      -0.0011615   0.000316511
  12101.322       0.974868       0.995657       0.980424        1.00121       0.000518206   0.000674872
  12112.159       0.982851       0.99527       0.989128        1.00155       0.00147533   0.000120691
  12123.305       0.995216       0.994682        1.00228        1.00175       0.0016667   0.000213779
  12134.753        1.00468       0.993875        1.0126        1.0018      -7.46884e-05  -2.62858e-06
  12146.487        1.00163       0.992856        1.01047        1.0017      -0.000913987   0.000169573
  12158.553       0.993068       0.991626        1.00293        1.00148      -0.000776237   0.000188402
  12170.896       0.984716       0.990202       0.995662        1.00115      -0.00070066   9.94669e-05
  12183.581       0.985502       0.98859       0.997625        1.00071       0.00035248   5.78534e-05
  12196.545       0.987524       0.986813        1.00091        1.0002      -0.000537616  -7.50521e-05
  12209.830       0.98105       0.984887       0.995802       0.999639       0.000339964   0.000183029
  12223.398       0.979113       0.982842       0.995325       0.999053      -0.000103605  -2.03134e-05
  12237.283       0.974451       0.980702       0.992227       0.998478      -0.000253269   2.4878e-05
  12251.469       0.979589       0.978502       0.999038       0.997951      -0.000137325  -0.000200727
  12265.971       0.980565       0.976274        1.0018       0.997511      -8.6306e-05  -7.65782e-05
  12280.763       0.980232       0.974027        1.00337       0.997169       0.000190193  -4.70413e-05
  12295.869       0.977299       0.971748        1.00247       0.99692      -0.000945447  -0.000116316
  12311.276       0.968998       0.969431       0.996327       0.996761      -0.000176505  -9.99254e-06
  12326.981       0.961149       0.967066       0.99077       0.996687      -0.000196261   0.00012406
  12342.992       0.960302       0.96464       0.992354       0.996692      -0.000586223   4.55318e-05
  12359.325       0.964743       0.962137       0.999373       0.996767      -0.000344459  -8.94967e-05
  12375.942       0.961978       0.95955       0.999333       0.996905       4.0203e-06  -7.7076e-05
  12392.879       0.956184       0.956856       0.996424       0.997096       0.000578722   6.72942e-05
  12410.118       0.953715       0.95404       0.997001       0.997326       1.57145e-05   3.75308e-05
  12427.662       0.950412       0.951085       0.996912       0.997584       8.0086e-05   9.33994e-05
  12438.331       0.95089       0.949236       0.999401       0.997746      -0.000513965  -2.49734e-05

File: C1s_Imidazole_ISEELS_Hitchcock_Norm_Athena.txt
# XDI/1.0 Athena/0.9.24
# Element.edge:                  K
# Element.symbol:                C
# Column.1:                      energy eV
# Column.2:                      norm
# Column.3:                      nbkg
# Column.4:                      flat
# Column.5:                      fbkg
# Column.6:                      nder
# Column.7:                      nsec
# Athena.e0:                     286.1819
# Athena.eshift:                 0
# Athena.rbkg:                   1.0
# Athena.importance:             1
# Athena.standard:               None
# Athena.bkg_kweight:            2
# Athena.edge_step:              11035.1
# Athena.fixed_step:             no
# Athena.pre_edge_range:         -8.364 -1.499
# Athena.pre_edge_line:          4248.94 - 7.2978 * E
# Athena.normalization_range:    21.451 37.864
# Athena.post_edge_polynomial:   61847.5 - 170.004 * E + 0 * E^2 + 0 * E^3
# Athena.spline_range_energy:    0.000 38.795
# Athena.clamps:                 0 24
# Athena.spline_range_k:         0.000 3.191
# Athena.kweight:                2
# Athena.window:                 hanning
# Athena.phase_correction:       no
# Athena.k_range:                1.191 3.000
# Athena.dk:                     1
# Athena.r_range:                1 3
# Athena.dr:                     0.0
# Athena.window:                 hanning
# Athena.plot_multiplier:        1
# Athena.y_offset:               0
# ///
#------------------------
#   e         norm        flat        fbkg        nder        nsec
  277.818       0.0122895   0.0122895  -0.201294      -0.060353   0.300405
  278.345       0.0076814   0.0076814  -0.200945       0.0138081  -0.0638873
  279.137      -0.00535931  -0.00535931  -0.200422      -0.0234602   0.168704
  279.664       0.00419171   0.00419171  -0.200073       0.0173714  -0.149238
  280.324      -0.00295632  -0.00295632  -0.199637       0.0303131   0.0925667
  280.851      -0.00309376  -0.00309376  -0.199288       0.0176748   0.18634
  281.379      -0.000828953  -0.000828953  -0.198939      -0.00716608   0.14723
  281.906      -0.00433792  -0.00433792  -0.19859       0.0243606  -0.00265126
  282.434      -0.0120106  -0.0120106  -0.198241      -0.0154902   0.125391
  282.962      -0.00317898  -0.00317898  -0.197892      -0.00232463   0.123655
  283.489       0.000306294   0.000306294  -0.197543       0.0123311   0.0467982
  284.149      -0.00384421  -0.00384421  -0.197107      -0.0164616    1.04451
  284.375       0.000632628   0.000632628  -0.196958       0.0604611   0.175224
  284.643       0.00967485   0.00967485  -0.19678      -0.0377815   -1.11675
  284.91       0.0167152   0.0167152  -0.196603       0.148026      -0.127167
  285.178       0.0340506   0.0340506  -0.196426       0.0903617   0.44723
  285.446       0.0479544   0.0479544  -0.196249       0.111719        3.62333
  285.714       0.211136       0.211136      -0.196072        1.17531        8.08092
  285.981       0.777825       0.777825      -0.195895        3.57799        12.001
  286.249        1.90731        1.9083      -0.19473        3.75526       -9.96756
  286.517        2.52605        2.53098      -0.190606       0.822908       -7.17434
  286.784        2.58542        2.5943      -0.186482      -0.259897       -2.92185
  287.052        2.26416        2.27699      -0.182358       -1.75918      -0.138196
  287.32        1.67552        1.6923      -0.178234       -2.52589        2.18883
  287.587        1.12434        1.14507      -0.17411       -1.96847        3.48505
  287.855       0.830254       0.854924      -0.169986      -0.563166       0.155414
  288.123       0.672574       0.701191      -0.165862      -0.200096        3.38148
  288.39       0.614698       0.647263      -0.161737      -0.150975        3.01436
  288.658       0.56912       0.605631      -0.157613      -0.197961        1.54662
  288.926       0.526401       0.566859      -0.153489       0.162976        3.82964
  289.194       0.565184       0.60959      -0.149365       0.241997        1.66005
  289.461       0.600822       0.649175      -0.145241       0.150162       -1.80348
  289.729       0.558389       0.610689      -0.141117      -0.0676821   0.653765
  289.997       0.57601       0.632257      -0.136993       0.259084       0.942583
  290.264       0.669243       0.729437      -0.132869       0.405538       0.982004
  290.532       0.777622       0.841763      -0.128745       0.418048      -0.0640441
  290.8       0.881469       0.949557      -0.12462       0.41861       -2.19878
  291.067       0.972564        1.0446      -0.120496       0.307951       -1.15113
  291.335        1.03641        1.11239      -0.116372       0.228978        2.31664
  291.603        1.13088        1.21081      -0.112248       0.287363       0.798972
  291.871        1.19281        1.27668      -0.108124       0.283194        2.18956
  292.138        1.23265        1.32047      -0.104       0.0311186    1.98563
  292.406        1.25044        1.34221      -0.0998758  -0.341724       -1.587
  292.674        1.18147        1.27719      -0.0957516  -0.0273103    1.58105
  292.941        1.17588        1.27555      -0.0916275  -0.0863285   -2.49978
  293.209        1.11878        1.22239      -0.0875034  -0.1896      -0.55265
  293.477        1.03409        1.14165      -0.0833793  -0.0146858    2.62869
  293.745       0.997509        1.10902      -0.0792552  -0.285286       0.915231
  294.012       0.984709        1.10016      -0.0751311  -0.12834       -1.74458
  294.28       0.952366        1.07177      -0.071007   0.0290529  -0.300475
  294.548       0.937647        1.06099      -0.0668828  -0.00351749    1.74271
  294.815       0.94793        1.07522      -0.0627587  -0.160538      -0.475542
  295.083       0.940959        1.0722      -0.0586346   0.0515048   -1.3725
  295.351       0.937636        1.07282      -0.0545105  -0.0833146  -0.510826
  295.756       0.979982        1.12114      -0.0482727   0.119893      -0.270053
  296.283        1.0146        1.16353      -0.0401462   0.0379914   0.0268121
  296.811        1.10518        1.2619      -0.0320181   0.105981      -0.747836
  297.338        1.13516        1.29965      -0.0238901   0.132047       0.26359
  297.866        1.16436        1.33664      -0.015762  -0.0295889  -0.421428
  298.394        1.15859        1.33864      -0.00763393   0.0455145  -0.509144
  298.921        1.13657        1.3244       0.000494138  -0.0882584  -0.442341
  299.449        1.08684        1.28245       0.0086222  -0.0622918   0.0232702
  299.976        1.06896        1.27235       0.0167503  -0.123641      -0.368012
  300.504        1.03526        1.24643       0.0248768  -0.0560638  -0.409076
  301.031       0.998759        1.21771       0.0330049  -0.0424914   0.0573746
  301.559       0.993903        1.22063       0.0411329  -0.0510382  -0.11234
  302.087       0.93084        1.16535       0.049261  -0.124451       0.763397
  302.614       0.919111        1.1614       0.0573891   0.0099741  -0.0448605
  303.274       0.903434        1.15544       0.0675491  -0.0594795  -0.230873
  303.801       0.877513        1.1373       0.0756772  -0.049166  -0.221672
  304.329       0.847971        1.11554       0.0838053  -0.0442468   0.010678
  304.856       0.818772        1.09412       0.0919318   0.0019667   0.102429
  305.384       0.808268        1.09139       0.10006      -0.110326      -0.190211
  305.912       0.79101        1.08191       0.108188      -0.130965      -0.192151
  306.439       0.74576        1.04444       0.116316      -0.00496207   0.452837
  306.967       0.73502        1.04148       0.124444      -0.0533019   0.129881
  307.494       0.723611        1.03785       0.132572      -0.0916386  -0.216457
  308.022       0.690404        1.01242       0.1407      -0.0450135   0.136867
  308.55       0.672713        1.00251       0.148828      -0.0610143   0.236827
  309.077       0.671416        1.00899       0.156955       0.0297419  -0.0145379
  309.605       0.647822       0.993177       0.165083       0.016504   0.372401
  310.132       0.656716        1.00985       0.173211      -0.0584423  -0.144891
  310.66       0.641831        1.00274       0.181339      -0.0670039  -0.0596378
  311.188       0.625919       0.994612       0.189467       0.0419134   0.148748
  311.634       0.630949        1.00623       0.196347      -0.119481      -0.351328
  312.111       0.59778       0.980087       0.203691      -0.00126929   0.797635
  312.587       0.620937        1.01027       0.211035       0.00969141   0.0459475
  313.064       0.584476       0.980839       0.218379      -0.0489386   0.713085
  313.541       0.583086       0.986478       0.225723      -0.0553604   0.0925347
  314.017       0.574042       0.984461       0.233065      -0.115739      -0.273102
  314.494       0.550941       0.968389       0.240409       0.0416126   0.466352
  314.971       0.575496       0.999972       0.247753      -0.0544303  -0.133537
  315.448       0.555626       0.987131       0.255097      -0.0934099   0.0513566
  315.924       0.561162       0.999696       0.262441      -0.00342798  -0.569388
  316.401       0.541753       0.987316       0.269785       0.0695661  -0.0137706
  316.878       0.532597       0.985189       0.277129       0.0343022  -0.0305768
  317.354       0.53964       0.999259       0.284471       0.101401      -0.239793
  317.831       0.522209       0.988856       0.291815      -0.0662949   0.340039
  318.308       0.517802       0.991478       0.299159       0.00380984  -0.0171275
  318.784       0.524234        1.00494       0.306503      -0.00397193  -0.518914
  319.261       0.514028        1.00176       0.313847       0.0599762  -0.389366
  319.738       0.512414        1.00718       0.321191       0.0831081  -0.0839218
  320.214       0.493232       0.995021       0.328533      -0.0534156   0.510678
  320.691       0.499127        1.00794       0.335877       0.0359089   0.182536
  321.168       0.508692        1.02454       0.343221      -0.0447164  -0.2139
  321.644       0.490901        1.01378       0.350565       0.00614035  -0.16195
  322.121       0.463268       0.993172       0.357909      -0.0345045   0.422206
  322.598       0.466606        1.00354       0.365253      -0.0307713   0.0904379
  323.075       0.475074        1.01904       0.372597      -0.0288965  -0.467219
  323.551       0.448896       0.999884       0.379939       0.0218679   0.140822
  324.028       0.453597        1.01161       0.387283       0.0598435  -0.144413
  324.505       0.454305        1.01935       0.394627       0.0349134  -0.205578
  324.981       0.467762        1.03984       0.401971       0.100479       0.118814